Ks #2 LOT 4001 RT parallel  
Central wavelength at 23°C: 2162.1 nm
Calculated central wavelength at 77K & F/2.35: 2150.73 nm
shifted data 
lambda nm transmission %          
2488.6      0.022000
2488.1      0.005000
2487.6      0.051000
2487.1      0.062000
2486.6      0.062000
2486.1      0.057000
2485.6      0.027000
2485.1      0.048000
2484.6      0.105000
2484.1      0.045000
2483.6      0.019000
2483.1      0.025000
2482.6      0.045000
2482.1      0.078000
2481.6      0.037000
2481.1      0.064000
2480.6      0.071000
2480.1      0.034000
2479.6      0.037000
2479.1      0.096000
2478.6      0.054000
2478.1      0.053000
2477.6      0.008000
2477.1      0.059000
2476.6      0.073000
2476.1      0.070000
2475.6      0.034000
2475.1      0.068000
2474.6      0.076000
2474.1      0.051000
2473.6      0.038000
2473.1      0.030000
2472.6      0.062000
2472.1      0.010000
2471.6      0.042000
2471.1      -0.032000
2470.6      0.052000
2470.1      0.022000
2469.6      0.043000
2469.1      0.037000
2468.6      0.060000
2468.1      0.067000
2467.6      0.014000
2467.1      0.043000
2466.6      0.067000
2466.1      0.074000
2465.6      0.077000
2465.1      0.073000
2464.6      0.056000
2464.1      0.005000
2463.6      0.027000
2463.1      -0.003000
2462.6      0.016000
2462.1      0.059000
2461.6      0.030000
2461.1      0.043000
2460.6      0.040000
2460.1      0.070000
2459.6      -0.003000
2459.1      0.045000
2458.6      0.014000
2458.1      0.034000
2457.6      0.032000
2457.1      0.024000
2456.6      0.013000
2456.1      0.008000
2455.6      0.056000
2455.1      0.019000
2454.6      0.019000
2454.1      0.040000
2453.6      0.054000
2453.1      0.021000
2452.6      0.043000
2452.1      0.096000
2451.6      0.081000
2451.1      0.027000
2450.6      -0.010000
2450.1      0.072000
2449.6      0.024000
2449.1      0.027000
2448.6      0.011000
2448.1      0.021000
2447.6      0.032000
2447.1      0.051000
2446.6      0.024000
2446.1      0.054000
2445.6      0.014000
2445.1      0.095000
2444.6      -0.006000
2444.1      0.009000
2443.6      0.065000
2443.1      0.059000
2442.6      0.051000
2442.1      0.061000
2441.6      -0.005000
2441.1      0.006000
2440.6      0.016000
2440.1      0.032000
2439.6      0.014000
2439.1      0.037000
2438.6      0.018000
2438.1      0.056000
2437.6      0.071000
2437.1      0.074000
2436.6      0.042000
2436.1      0.086000
2435.6      0.054000
2435.1      0.038000
2434.6      0.080000
2434.1      0.040000
2433.6      0.014000
2433.1      0.014000
2432.6      0.011000
2432.1      0.083000
2431.6      0.043000
2431.1      -0.011000
2430.6      0.040000
2430.1      0.011000
2429.6      -0.016000
2429.1      0.069000
2428.6      0.027000
2428.1      0.051000
2427.6      0.016000
2427.1      0.059000
2426.6      0.016000
2426.1      0.083000
2425.6      0.024000
2425.1      0.057000
2424.6      0.019000
2424.1      0.046000
2423.6      -0.006000
2423.1      0.052000
2422.6      0.032000
2422.1      0.011000
2421.6      0.043000
2421.1      0.035000
2420.6      0.050000
2420.1      0.024000
2419.6      0.048000
2419.1      0.040000
2418.6      0.050000
2418.1      0.056000
2417.6      0.027000
2417.1      0.043000
2416.6      0.005000
2416.1      0.048000
2415.6      0.054000
2415.1      0.081000
2414.6      0.093000
2414.1      0.047000
2413.6      -0.005000
2413.1      0.035000
2412.6      0.047000
2412.1      0.055000
2411.6      -0.021000
2411.1      -0.002000
2410.6      0.067000
2410.1      0.040000
2409.6      0.118000
2409.1      0.048000
2408.6      0.000000
2408.1      0.038000
2407.6      0.061000
2407.1      0.024000
2406.6      0.005000
2406.1      0.026000
2405.6      0.033000
2405.1      0.076000
2404.6      0.029000
2404.1      0.029000
2403.6      -0.017000
2403.1      0.067000
2402.6      -0.005000
2402.1      -0.029000
2401.6      0.016000
2401.1      0.077000
2400.6      0.045000
2400.1      0.067000
2399.6      -0.013000
2399.1      0.045000
2398.6      -0.013000
2398.1      0.069000
2397.6      0.102000
2397.1      0.005000
2396.6      0.006000
2396.1      0.085000
2395.6      0.085000
2395.1      0.063000
2394.6      0.048000
2394.1      0.080000
2393.6      0.040000
2393.1      -0.008000
2392.6      0.059000
2392.1      0.125000
2391.6      0.074000
2391.1      0.075000
2390.6      0.016000
2390.1      0.021000
2389.6      0.050000
2389.1      0.051000
2388.6      0.019000
2388.1      -0.003000
2387.6      0.080000
2387.1      0.062000
2386.6      -0.016000
2386.1      0.029000
2385.6      0.056000
2385.1      0.003000
2384.6      0.035000
2384.1      0.029000
2383.6      0.011000
2383.1      0.006000
2382.6      0.032000
2382.1      0.000000
2381.6      0.027000
2381.1      0.056000
2380.6      0.101000
2380.1      0.059000
2379.6      0.043000
2379.1      0.061000
2378.6      0.016000
2378.1      0.019000
2377.6      0.024000
2377.1      0.005000
2376.6      0.040000
2376.1      0.058000
2375.6      0.027000
2375.1      0.051000
2374.6      0.054000
2374.1      0.013000
2373.6      0.018000
2373.1      0.045000
2372.6      0.049000
2372.1      0.043000
2371.6      0.053000
2371.1      0.030000
2370.6      0.029000
2370.1      0.043000
2369.6      0.035000
2369.1      0.040000
2368.6      0.029000
2368.1      0.082000
2367.6      0.032000
2367.1      0.040000
2366.6      0.056000
2366.1      0.080000
2365.6      0.040000
2365.1      -0.021000
2364.6      -0.019000
2364.1      0.054000
2363.6      0.050000
2363.1      0.037000
2362.6      0.067000
2362.1      0.072000
2361.6      0.013000
2361.1      0.030000
2360.6      -0.005000
2360.1      0.069000
2359.6      0.029000
2359.1      0.040000
2358.6      0.093000
2358.1      0.040000
2357.6      0.040000
2357.1      0.061000
2356.6      0.079000
2356.1      0.087000
2355.6      0.027000
2355.1      0.029000
2354.6      0.058000
2354.1      0.081000
2353.6      0.072000
2353.1      0.098000
2352.6      0.042000
2352.1      0.018000
2351.6      0.053000
2351.1      0.077000
2350.6      0.053000
2350.1      0.069000
2349.6      0.079000
2349.1      0.074000
2348.6      0.050000
2348.1      0.080000
2347.6      0.085000
2347.1      0.051000
2346.6      0.075000
2346.1      0.055000
2345.6      0.080000
2345.1      0.093000
2344.6      0.080000
2344.1      0.067000
2343.6      0.143000
2343.1      0.100000
2342.6      0.135000
2342.1      0.111000
2341.6      0.091000
2341.1      0.139000
2340.6      0.089000
2340.1      0.111000
2339.6      0.135000
2339.1      0.110000
2338.6      0.074000
2338.1      0.203000
2337.6      0.107000
2337.1      0.160000
2336.6      0.167000
2336.1      0.120000
2335.6      0.159000
2335.1      0.196000
2334.6      0.146000
2334.1      0.202000
2333.6      0.245000
2333.1      0.233000
2332.6      0.214000
2332.1      0.262000
2331.6      0.288000
2331.1      0.264000
2330.6      0.280000
2330.1      0.348000
2329.6      0.305000
2329.1      0.363000
2328.6      0.381000
2328.1      0.459000
2327.6      0.398000
2327.1      0.420000
2326.6      0.454000
2326.1      0.485000
2325.6      0.534000
2325.1      0.569000
2324.6      0.640000
2324.1      0.651000
2323.6      0.675000
2323.1      0.776000
2322.6      0.845000
2322.1      0.933000
2321.6      0.958000
2321.1      1.030000
2320.6      1.153000
2320.1      1.264000
2319.6      1.374000
2319.1      1.575000
2318.6      1.620000
2318.1      1.793000
2317.6      1.989000
2317.1      2.169000
2316.6      2.380000
2316.1      2.654000
2315.6      2.895000
2315.1      3.177000
2314.6      3.528000
2314.1      3.906000
2313.6      4.443000
2313.1      4.893000
2312.6      5.343000
2312.1      5.947000
2311.6      6.680000
2311.1      7.425000
2310.6      8.452000
2310.1      9.380000
2309.6      10.391000
2309.1      11.622000
2308.6      13.021000
2308.1      14.561000
2307.6      16.546000
2307.1      18.403000
2306.6      20.533000
2306.1      22.796000
2305.6      25.243000
2305.1      28.088000
2304.6      31.238000
2304.1      34.564000
2303.6      37.634000
2303.1      40.942000
2302.6      44.142000
2302.1      47.485000
2301.6      51.148000
2301.1      54.365000
2300.6      57.070000
2300.1      59.648000
2299.6      61.709000
2299.1      63.529000
2298.6      65.345000
2298.1      66.420000
2297.6      67.092000
2297.1      67.719000
2296.6      67.773000
2296.1      67.590000
2295.6      67.432000
2295.1      66.686000
2294.6      66.023000
2294.1      65.328000
2293.6      64.298000
2293.1      63.364000
2292.6      62.357000
2292.1      61.182000
2291.6      60.105000
2291.1      58.958000
2290.6      57.989000
2290.1      57.065000
2289.6      56.045000
2289.1      55.019000
2288.6      54.156000
2288.1      53.253000
2287.6      52.610000
2287.1      52.092000
2286.6      51.494000
2286.1      50.960000
2285.6      50.589000
2285.1      50.394000
2284.6      50.287000
2284.1      50.280000
2283.6      50.347000
2283.1      50.505000
2282.6      50.878000
2282.1      51.313000
2281.6      51.781000
2281.1      52.305000
2280.6      52.897000
2280.1      53.683000
2279.6      54.459000
2279.1      55.308000
2278.6      56.135000
2278.1      56.970000
2277.6      57.818000
2277.1      58.735000
2276.6      59.701000
2276.1      60.639000
2275.6      61.533000
2275.1      62.377000
2274.6      63.209000
2274.1      64.045000
2273.6      64.882000
2273.1      65.671000
2272.6      66.394000
2272.1      67.111000
2271.6      67.639000
2271.1      68.112000
2270.6      68.605000
2270.1      69.084000
2269.6      69.482000
2269.1      69.746000
2268.6      69.987000
2268.1      70.180000
2267.6      70.256000
2267.1      70.356000
2266.6      70.392000
2266.1      70.374000
2265.6      70.226000
2265.1      70.136000
2264.6      70.011000
2264.1      69.778000
2263.6      69.500000
2263.1      69.209000
2262.6      68.986000
2262.1      68.735000
2261.6      68.417000
2261.1      68.055000
2260.6      67.705000
2260.1      67.315000
2259.6      67.056000
2259.1      66.787000
2258.6      66.366000
2258.1      66.068000
2257.6      65.758000
2257.1      65.429000
2256.6      65.180000
2256.1      64.872000
2255.6      64.578000
2255.1      64.316000
2254.6      64.000000
2254.1      63.714000
2253.6      63.461000
2253.1      63.217000
2252.6      62.945000
2252.1      62.694000
2251.6      62.432000
2251.1      62.206000
2250.6      61.863000
2250.1      61.572000
2249.6      61.373000
2249.1      61.128000
2248.6      60.982000
2248.1      60.695000
2247.6      60.410000
2247.1      60.240000
2246.6      60.026000
2246.1      59.792000
2245.6      59.661000
2245.1      59.423000
2244.6      59.225000
2244.1      59.102000
2243.6      59.067000
2243.1      58.929000
2242.6      58.830000
2242.1      58.771000
2241.6      58.647000
2241.1      58.672000
2240.6      58.717000
2240.1      58.728000
2239.6      58.770000
2239.1      58.850000
2238.6      58.978000
2238.1      59.127000
2237.6      59.270000
2237.1      59.446000
2236.6      59.625000
2236.1      59.871000
2235.6      60.147000
2235.1      60.505000
2234.6      60.734000
2234.1      61.070000
2233.6      61.416000
2233.1      61.736000
2232.6      62.134000
2232.1      62.571000
2231.6      63.002000
2231.1      63.502000
2230.6      63.940000
2230.1      64.310000
2229.6      64.802000
2229.1      65.320000
2228.6      65.834000
2228.1      66.318000
2227.6      66.793000
2227.1      67.238000
2226.6      67.718000
2226.1      68.187000
2225.6      68.690000
2225.1      69.221000
2224.6      69.661000
2224.1      70.020000
2223.6      70.413000
2223.1      70.836000
2222.6      71.262000
2222.1      71.682000
2221.6      72.052000
2221.1      72.398000
2220.6      72.695000
2220.1      72.969000
2219.6      73.276000
2219.1      73.574000
2218.6      73.776000
2218.1      73.936000
2217.6      74.128000
2217.1      74.351000
2216.6      74.443000
2216.1      74.632000
2215.6      74.743000
2215.1      74.827000
2214.6      74.912000
2214.1      75.010000
2213.6      74.984000
2213.1      75.075000
2212.6      75.100000
2212.1      75.087000
2211.6      75.056000
2211.1      75.037000
2210.6      74.999000
2210.1      74.965000
2209.6      74.871000
2209.1      74.858000
2208.6      74.827000
2208.1      74.687000
2207.6      74.621000
2207.1      74.474000
2206.6      74.452000
2206.1      74.368000
2205.6      74.261000
2205.1      74.225000
2204.6      74.092000
2204.1      74.095000
2203.6      73.997000
2203.1      73.931000
2202.6      73.823000
2202.1      73.879000
2201.6      73.777000
2201.1      73.805000
2200.6      73.812000
2200.1      73.743000
2199.6      73.778000
2199.1      73.833000
2198.6      73.913000
2198.1      73.931000
2197.6      73.979000
2197.1      74.151000
2196.6      74.393000
2196.1      74.538000
2195.6      74.656000
2195.1      74.829000
2194.6      75.010000
2194.1      75.372000
2193.6      75.656000
2193.1      75.877000
2192.6      76.153000
2192.1      76.508000
2191.6      76.914000
2191.1      77.232000
2190.6      77.673000
2190.1      78.012000
2189.6      78.396000
2189.1      78.783000
2188.6      79.207000
2188.1      79.593000
2187.6      80.011000
2187.1      80.430000
2186.6      80.859000
2186.1      81.274000
2185.6      81.608000
2185.1      82.003000
2184.6      82.338000
2184.1      82.821000
2183.6      83.116000
2183.1      83.454000
2182.6      83.681000
2182.1      83.894000
2181.6      84.189000
2181.1      84.566000
2180.6      84.698000
2180.1      84.944000
2179.6      85.109000
2179.1      85.275000
2178.6      85.477000
2178.1      85.676000
2177.6      85.803000
2177.1      85.828000
2176.6      85.888000
2176.1      86.111000
2175.6      86.081000
2175.1      86.185000
2174.6      86.155000
2174.1      86.253000
2173.6      86.299000
2173.1      86.386000
2172.6      86.290000
2172.1      86.349000
2171.6      86.337000
2171.1      86.234000
2170.6      86.282000
2170.1      86.297000
2169.6      86.243000
2169.1      86.226000
2168.6      86.236000
2168.1      86.245000
2167.6      86.223000
2167.1      86.288000
2166.6      86.156000
2166.1      86.251000
2165.6      86.248000
2165.1      86.156000
2164.6      86.108000
2164.1      86.089000
2163.6      86.097000
2163.1      86.083000
2162.6      85.962000
2162.1      85.903000
2161.6      85.856000
2161.1      85.782000
2160.6      85.701000
2160.1      85.672000
2159.6      85.570000
2159.1      85.419000
2158.6      85.364000
2158.1      85.271000
2157.6      85.115000
2157.1      85.012000
2156.6      84.882000
2156.1      84.728000
2155.6      84.630000
2155.1      84.480000
2154.6      84.292000
2154.1      84.176000
2153.6      84.029000
2153.1      83.780000
2152.6      83.607000
2152.1      83.447000
2151.6      83.334000
2151.1      83.211000
2150.6      83.053000
2150.1      82.876000
2149.6      82.781000
2149.1      82.673000
2148.6      82.512000
2148.1      82.431000
2147.6      82.315000
2147.1      82.264000
2146.6      82.174000
2146.1      82.085000
2145.6      82.067000
2145.1      82.033000
2144.6      81.952000
2144.1      81.934000
2143.6      81.966000
2143.1      81.923000
2142.6      81.915000
2142.1      81.988000
2141.6      82.045000
2141.1      82.081000
2140.6      82.133000
2140.1      82.161000
2139.6      82.270000
2139.1      82.340000
2138.6      82.449000
2138.1      82.543000
2137.6      82.594000
2137.1      82.647000
2136.6      82.789000
2136.1      82.888000
2135.6      82.949000
2135.1      83.022000
2134.6      83.095000
2134.1      83.189000
2133.6      83.282000
2133.1      83.401000
2132.6      83.388000
2132.1      83.469000
2131.6      83.570000
2131.1      83.600000
2130.6      83.626000
2130.1      83.636000
2129.6      83.653000
2129.1      83.684000
2128.6      83.722000
2128.1      83.775000
2127.6      83.714000
2127.1      83.734000
2126.6      83.773000
2126.1      83.753000
2125.6      83.702000
2125.1      83.677000
2124.6      83.744000
2124.1      83.730000
2123.6      83.746000
2123.1      83.721000
2122.6      83.747000
2122.1      83.835000
2121.6      83.840000
2121.1      83.917000
2120.6      83.962000
2120.1      83.973000
2119.6      84.008000
2119.1      84.062000
2118.6      84.145000
2118.1      84.300000
2117.6      84.368000
2117.1      84.470000
2116.6      84.570000
2116.1      84.702000
2115.6      84.783000
2115.1      85.002000
2114.6      85.120000
2114.1      85.218000
2113.6      85.384000
2113.1      85.520000
2112.6      85.668000
2112.1      85.815000
2111.6      85.889000
2111.1      86.109000
2110.6      86.242000
2110.1      86.361000
2109.6      86.503000
2109.1      86.583000
2108.6      86.739000
2108.1      86.864000
2107.6      86.996000
2107.1      87.107000
2106.6      87.192000
2106.1      87.316000
2105.6      87.406000
2105.1      87.480000
2104.6      87.635000
2104.1      87.652000
2103.6      87.697000
2103.1      87.677000
2102.6      87.800000
2102.1      87.887000
2101.6      87.894000
2101.1      87.920000
2100.6      87.858000
2100.1      87.944000
2099.6      87.914000
2099.1      87.961000
2098.6      87.995000
2098.1      88.001000
2097.6      87.980000
2097.1      87.905000
2096.6      87.921000
2096.1      87.961000
2095.6      87.966000
2095.1      87.914000
2094.6      87.836000
2094.1      87.811000
2093.6      87.829000
2093.1      87.800000
2092.6      87.726000
2092.1      87.667000
2091.6      87.643000
2091.1      87.571000
2090.6      87.576000
2090.1      87.394000
2089.6      87.373000
2089.1      87.375000
2088.6      87.265000
2088.1      87.247000
2087.6      87.157000
2087.1      87.075000
2086.6      87.005000
2086.1      87.066000
2085.6      87.008000
2085.1      86.886000
2084.6      86.881000
2084.1      86.859000
2083.6      86.854000
2083.1      86.834000
2082.6      86.781000
2082.1      86.664000
2081.6      86.752000
2081.1      86.771000
2080.6      86.755000
2080.1      86.740000
2079.6      86.727000
2079.1      86.876000
2078.6      86.888000
2078.1      86.960000
2077.6      87.017000
2077.1      87.100000
2076.6      87.159000
2076.1      87.202000
2075.6      87.226000
2075.1      87.349000
2074.6      87.387000
2074.1      87.496000
2073.6      87.568000
2073.1      87.670000
2072.6      87.677000
2072.1      87.742000
2071.6      87.747000
2071.1      87.735000
2070.6      87.782000
2070.1      87.804000
2069.6      87.741000
2069.1      87.741000
2068.6      87.659000
2068.1      87.580000
2067.6      87.502000
2067.1      87.438000
2066.6      87.345000
2066.1      87.215000
2065.6      87.148000
2065.1      86.878000
2064.6      86.722000
2064.1      86.454000
2063.6      86.328000
2063.1      86.208000
2062.6      85.964000
2062.1      85.654000
2061.6      85.481000
2061.1      85.158000
2060.6      84.983000
2060.1      84.843000
2059.6      84.569000
2059.1      84.464000
2058.6      84.225000
2058.1      84.015000
2057.6      83.864000
2057.1      83.667000
2056.6      83.565000
2056.1      83.445000
2055.6      83.358000
2055.1      83.266000
2054.6      83.195000
2054.1      83.128000
2053.6      83.155000
2053.1      83.146000
2052.6      83.136000
2052.1      83.219000
2051.6      83.313000
2051.1      83.462000
2050.6      83.551000
2050.1      83.668000
2049.6      83.821000
2049.1      83.955000
2048.6      84.159000
2048.1      84.278000
2047.6      84.492000
2047.1      84.751000
2046.6      84.901000
2046.1      85.123000
2045.6      85.358000
2045.1      85.497000
2044.6      85.769000
2044.1      85.868000
2043.6      86.006000
2043.1      86.098000
2042.6      86.234000
2042.1      86.330000
2041.6      86.431000
2041.1      86.434000
2040.6      86.443000
2040.1      86.495000
2039.6      86.484000
2039.1      86.524000
2038.6      86.392000
2038.1      86.344000
2037.6      86.257000
2037.1      86.120000
2036.6      86.016000
2036.1      85.893000
2035.6      85.749000
2035.1      85.590000
2034.6      85.414000
2034.1      85.292000
2033.6      85.120000
2033.1      84.938000
2032.6      84.801000
2032.1      84.643000
2031.6      84.476000
2031.1      84.401000
2030.6      84.246000
2030.1      84.068000
2029.6      83.962000
2029.1      83.894000
2028.6      83.845000
2028.1      83.694000
2027.6      83.636000
2027.1      83.596000
2026.6      83.568000
2026.1      83.588000
2025.6      83.466000
2025.1      83.459000
2024.6      83.422000
2024.1      83.396000
2023.6      83.422000
2023.1      83.448000
2022.6      83.375000
2022.1      83.413000
2021.6      83.345000
2021.1      83.317000
2020.6      83.211000
2020.1      83.060000
2019.6      83.003000
2019.1      82.812000
2018.6      82.672000
2018.1      82.482000
2017.6      82.218000
2017.1      81.891000
2016.6      81.577000
2016.1      81.268000
2015.6      80.822000
2015.1      80.449000
2014.6      79.954000
2014.1      79.360000
2013.6      78.733000
2013.1      78.094000
2012.6      77.430000
2012.1      76.812000
2011.6      76.015000
2011.1      75.106000
2010.6      74.203000
2010.1      73.287000
2009.6      72.292000
2009.1      71.335000
2008.6      70.315000
2008.1      69.190000
2007.6      68.042000
2007.1      66.791000
2006.6      65.563000
2006.1      64.436000
2005.6      63.243000
2005.1      61.841000
2004.6      60.356000
2004.1      59.119000
2003.6      57.699000
2003.1      56.344000
2002.6      54.998000
2002.1      53.618000
2001.6      52.137000
2001.1      50.603000
2000.6      49.127000
2000.1      47.733000
1999.6      46.371000
1999.1      44.972000
1998.6      43.534000
1998.1      42.014000
1997.6      40.586000
1997.1      39.224000
1996.6      37.971000
1996.1      36.672000
1995.6      35.257000
1995.1      33.989000
1994.6      32.671000
1994.1      31.410000
1993.6      30.256000
1993.1      29.149000
1992.6      28.022000
1992.1      26.818000
1991.6      25.662000
1991.1      24.679000
1990.6      23.678000
1990.1      22.761000
1989.6      21.802000
1989.1      20.828000
1988.6      19.942000
1988.1      19.045000
1987.6      18.300000
1987.1      17.505000
1986.6      16.778000
1986.1      16.075000
1985.6      15.259000
1985.1      14.607000
1984.6      13.989000
1984.1      13.330000
1983.6      12.844000
1983.1      12.266000
1982.6      11.672000
1982.1      11.101000
1981.6      10.611000
1981.1      10.167000
1980.6      9.729000
1980.1      9.301000
1979.6      8.858000
1979.1      8.414000
1978.6      8.001000
1978.1      7.720000
1977.6      7.338000
1977.1      7.029000
1976.6      6.722000
1976.1      6.394000
1975.6      6.107000
1975.1      5.864000
1974.6      5.547000
1974.1      5.381000
1973.6      5.097000
1973.1      4.851000
1972.6      4.614000
1972.1      4.455000
1971.6      4.252000
1971.1      4.082000
1970.6      3.893000
1970.1      3.762000
1969.6      3.525000
1969.1      3.378000
1968.6      3.172000
1968.1      3.080000
1967.6      2.982000
1967.1      2.824000
1966.6      2.702000
1966.1      2.625000
1965.6      2.476000
1965.1      2.348000
1964.6      2.233000
1964.1      2.144000
1963.6      2.128000
1963.1      1.995000
1962.6      1.869000
1962.1      1.836000
1961.6      1.802000
1961.1      1.703000
1960.6      1.595000
1960.1      1.541000
1959.6      1.454000
1959.1      1.347000
1958.6      1.362000
1958.1      1.284000
1957.6      1.294000
1957.1      1.178000
1956.6      1.127000
1956.1      1.120000
1955.6      1.017000
1955.1      1.017000
1954.6      0.990000
1954.1      0.878000
1953.6      0.944000
1953.1      0.844000
1952.6      0.875000
1952.1      0.835000
1951.6      0.665000
1951.1      0.750000
1950.6      0.737000
1950.1      0.683000
1949.6      0.635000
1949.1      0.681000
1948.6      0.615000
1948.1      0.576000
1947.6      0.536000
1947.1      0.548000
1946.6      0.497000
1946.1      0.566000
1945.6      0.506000
1945.1      0.439000
1944.6      0.490000
1944.1      0.424000
1943.6      0.415000
1943.1      0.411000
1942.6      0.354000
1942.1      0.349000
1941.6      0.381000
1941.1      0.313000
1940.6      0.361000
1940.1      0.332000
1939.6      0.343000
1939.1      0.341000
1938.6      0.346000
1938.1      0.304000
1937.6      0.270000
1937.1      0.287000
1936.6      0.257000
1936.1      0.232000
1935.6      0.237000
1935.1      0.249000
1934.6      0.214000
1934.1      0.218000
1933.6      0.219000
1933.1      0.209000
1932.6      0.197000
1932.1      0.170000
1931.6      0.207000
1931.1      0.159000
1930.6      0.205000
1930.1      0.196000
1929.6      0.197000
1929.1      0.203000
1928.6      0.203000
1928.1      0.095000
1927.6      0.182000
1927.1      0.145000
1926.6      0.158000
1926.1      0.111000
1925.6      0.142000
1925.1      0.084000
1924.6      0.147000
1924.1      0.151000
1923.6      0.106000
1923.1      0.157000
1922.6      0.140000
1922.1      0.109000
1921.6      0.149000
1921.1      0.118000
1920.6      0.129000
1920.1      0.149000
1919.6      0.104000
1919.1      0.122000
1918.6      0.072000
1918.1      0.090000
1917.6      0.101000
1917.1      0.109000
1916.6      0.115000
1916.1      0.091000
1915.6      0.090000
1915.1      0.135000
1914.6      0.103000
1914.1      0.126000
1913.6      0.107000
1913.1      0.089000
1912.6      0.088000
1912.1      0.089000
1911.6      0.101000
1911.1      0.060000
1910.6      0.078000
1910.1      0.080000
1909.6      0.092000
1909.1      0.044000
1908.6      0.083000
1908.1      0.089000
1907.6      0.076000
1907.1      0.062000
1906.6      0.145000
1906.1      0.061000
1905.6      0.084000
1905.1      0.080000
1904.6      0.127000
1904.1      0.132000
1903.6      0.109000
1903.1      0.016000
1902.6      0.049000
1902.1      0.058000
1901.6      0.041000
1901.1      0.052000
1900.6      0.095000
1900.1      0.049000
1899.6      0.060000
1899.1      0.021000
1898.6      0.037000
1898.1      0.056000
1897.6      0.092000
1897.1      0.043000
1896.6      0.026000
1896.1      0.151000
1895.6      0.097000
1895.1      0.129000
1894.6      0.060000
1894.1      0.104000
1893.6      0.006000
1893.1      0.079000
1892.6      0.090000
1892.1      0.145000
1891.6      0.030000
1891.1      0.054000
1890.6      0.065000
1890.1      0.063000
1889.6      0.013000
1889.1      0.120000
1888.6      0.084000
1888.1      0.076000
1887.6      0.080000
1887.1      0.064000
1886.6      0.080000
1886.1      0.047000
1885.6      0.065000
1885.1      0.035000
1884.6      0.048000
1884.1      0.082000
1883.6      0.066000
1883.1      0.034000
1882.6      0.044000
1882.1      0.027000
1881.6      0.039000
1881.1      -0.008000
1880.6      0.100000
1880.1      0.023000
1879.6      0.048000
1879.1      0.110000
1878.6      0.037000
1878.1      0.089000
1877.6      0.083000
1877.1      0.092000
1876.6      0.060000
1876.1      0.034000
1875.6      0.037000
1875.1      0.054000
1874.6      0.045000
1874.1      0.016000
1873.6      0.093000
1873.1      0.100000
1872.6      0.012000
1872.1      0.059000
1871.6      0.071000
1871.1      0.030000
1870.6      0.111000
1870.1      0.026000
1869.6      0.053000
1869.1      0.034000
1868.6      0.065000
1868.1      0.072000
1867.6      -0.003000
1867.1      0.025000
1866.6      0.097000
1866.1      0.084000
1865.6      0.059000
1865.1      0.063000
1864.6      0.037000
1864.1      0.054000
1863.6      0.055000
1863.1      0.035000
1862.6      0.055000
1862.1      0.097000
1861.6      0.060000
1861.1      0.000000
1860.6      0.010000
1860.1      0.097000
1859.6      0.074000
1859.1      0.003000
1858.6      0.032000
1858.1      0.016000
1857.6      0.031000
1857.1      0.035000
1856.6      0.091000
1856.1      0.012000
1855.6      -0.013000
1855.1      0.021000
1854.6      0.075000
1854.1      0.037000
1853.6      0.085000
1853.1      0.045000
1852.6      0.015000
1852.1      0.005000
1851.6      0.035000
1851.1      0.114000
1850.6      0.086000
1850.1      0.083000
1849.6      0.110000
1849.1      0.072000
1848.6      0.085000
1848.1      0.030000
1847.6      0.043000
1847.1      0.000000
1846.6      0.063000
1846.1      0.045000
1845.6      0.080000
1845.1      0.037000
1844.6      0.012000
1844.1      0.023000
1843.6      0.101000
1843.1      -0.030000
1842.6      0.081000
1842.1      0.120000
1841.6      0.037000
1841.1      0.059000
1840.6      0.039000
1840.1      0.044000
1839.6      0.005000
1839.1      0.050000
1838.6      0.021000
1838.1      0.063000
1837.6      0.045000
1837.1      0.079000
1836.6      0.047000
1836.1      0.097000
1835.6      0.064000
1835.1      0.069000
1834.6      0.014000
1834.1      -0.030000
1833.6      0.088000
1833.1      0.027000
1832.6      0.050000
1832.1      0.011000
1831.6      0.017000
1831.1      0.055000
1830.6      0.137000
1830.1      0.067000
1829.6      0.016000
1829.1      0.030000
1828.6      0.074000
1828.1      -0.084000
1827.6      0.082000
1827.1      0.005000
1826.6      0.040000
1826.1      0.093000
1825.6      0.031000
1825.1      0.058000
1824.6      0.083000
1824.1      0.049000
1823.6      0.054000
1823.1      0.033000
1822.6      0.051000
1822.1      0.041000
1821.6      0.006000
1821.1      0.019000
1820.6      0.031000
1820.1      0.061000
1819.6      0.058000
1819.1      -0.005000
1818.6      0.082000
1818.1      0.055000
1817.6      0.064000
1817.1      0.051000
1816.6      0.015000
1816.1      0.055000
1815.6      0.054000
1815.1      0.092000
1814.6      0.066000
1814.1      0.040000
1813.6      0.025000
1813.1      0.095000
1812.6      0.047000
1812.1      0.095000
1811.6      0.045000
1811.1      0.137000
1810.6      0.085000
1810.1      0.090000
1809.6      0.033000
1809.1      0.025000
1808.6      0.092000
1808.1      0.082000
1807.6      0.052000
1807.1      0.026000
1806.6      0.095000
1806.1      0.100000
1805.6      0.057000
1805.1      0.079000
1804.6      0.040000
1804.1      0.048000
1803.6      0.031000
1803.1      0.048000
1802.6      0.082000
1802.1      0.087000
1801.6      0.056000
1801.1      0.091000
1800.6      0.018000
1800.1      0.055000
1799.6      -0.006000
1799.1      0.036000
1798.6      0.091000
1798.1      0.048000
1797.6      0.030000
1797.1      0.017000
1796.6      0.073000
1796.1      0.079000
1795.6      0.101000
1795.1      0.069000
1794.6      0.041000
1794.1      0.033000
1793.6      0.029000
1793.1      0.054000
1792.6      0.083000
1792.1      0.058000
1791.6      0.070000
1791.1      0.071000
1790.6      -0.022000
1790.1      0.054000
1789.6      0.071000
1789.1      0.024000
1788.6      0.059000
1788.1      0.058000
        
